File: xrd/data/sapphire_500C.uxd
; (content of file C:\XRD Data\marco\AnaSofia\2025_05_12\sapphire_500C.raw)
_FILEVERSION = 3
_SAMPLE =
_+SAMPLE =
_SITE = Portugal
_USER = Administrator
_GONIOMETER_CODE = 20
; Goniometer : D8 theta/2theta, stage : Unknown
_SAMPLE_CHANGER_CODE = 0
_ATTACHMENTS_CODE = 0
_GONIOMETER_RADIUS = 300
_FIXED_DIVSLIT = 0.6
_FIXED_SAMPLESLIT = 0
_SOLLER_SLITS = 2
_FIXED_DETSLIT = 0.1
_MONOCHROMATOR = 0
; Incident beam monochromator : None
_SOLLER_SLITS_2 = 2
_THIN_FILM = N
_BETA_FILTER = Y
_FIXED_ANTISLIT = 0.6
_ANALYZER_CODE = 0
; Received beam analyzer : None
_DATEMEASURED = "12-May-2025 18:12:39"
_WL_UNIT = A
_WL1 = 1.5406
_WL2 = 1.54439
_WL3 = 1.39222
_WLRATIO = 0.5
_ANODE = Cu
_V4_INF_CREATOR = XRDWizard
_V4_INF_CREATOR_VERSION = V2.9.0.22
_V4_INF_WIZARD_VERSION = V2.9.0.22
_V4_INF_WIZARD_ADDINS = V2.9.0.22
_V4_INF_WIZARD_DOCTYPE = HRXRD
_V4_INF_ALIGNMENT_STEPS = 101
_V4_INF_OSUSER = XRDBruker
_V4_INF_USER = Administrator
_V4_INF_SITE = Portugal

; Data for range 1
_DRIVE = COUPLED
_STEPTIME = 3.999
_STEPSIZE = 0.005
_STEPMODE = C
_START = 13.6823
_THETA = 5.3595
_2THETA = 13.6823
_KHI = 0.1434
_PHI = -0
_X = -27
_Y = -25
_Z = 0.0125
_ANTISCATTER = 0.499
_DETECTOR = 1
; Detector type : Scintillation counter
_HV = 573
_GAIN = 80
_LLD = 0.69
_ULD = 1.67
_DETECTORSLIT = unkn
_AUX1 = 0
_AUX2 = -7
_AUX3 = -7
_TIMESTARTED = 7
_TEMP_RATE = -1
_TEMP_DELAY = -1
_KV = 40
_MA = 40
_RANGE_WL = 1.5406
_3DPLANE = 0
_V4_D8_DIBNUM = 1
_V4_DETECTORNAME = "Detector 1"
_V4_TTLDETECTOR = None
_V4_DETECTORTYPE = 1
_V4_DETECTORFLAGS = 524545
_V4_DETECTORHV = 573
_V4_DETECTORGAIN = 80
_V4_DETECTORLLD1 = 0.69
_V4_DETECTORWW1 = 0.98
_V4_DETECTORLLD2 = 0
_V4_DETECTORWW2 = 0
_V4_DETECTORPS = 0
_V4_DETECTORDT = 0
_V4_DETECTORPILEUPTIME = 0
_V4_COUNTERS_MASK = 1
_V4_DRIVES_MASK = 0
_V4_ENCODERS_MASK = 0
_2THETACOUNTS = 1
; 2THETA  Cnt1_D1
  13.6823         32
  13.7223         42
  13.7623         28
  13.8023         41
  13.8423         42
  13.8823         35
  13.9223         39
  13.9623         47
  14.0023         45
  14.0423         40
  14.0823         37
  14.1223         35
  14.1623         48
  14.2023         34
  14.2423         35
  14.2823         32
  14.3223         33
  14.3623         27
  14.4023         41
  14.4423         37
  14.4823         33
  14.5223         33
  14.5623         38
  14.6023         39
  14.6423         25
  14.6823         39
  14.7223         39
  14.7623         37
  14.8023         34
  14.8423         36
  14.8823         31
  14.9223         32
  14.9623         39
  15.0023         35
  15.0423         35
  15.0823         28
  15.1223         29
  15.1623         33
  15.2023         30
  15.2423         37
  15.2823         33
  15.3223         27
  15.3623         26
  15.4023         32
  15.4423         40
  15.4823         34
  15.5223         30
  15.5623         26
  15.6023         35
  15.6423         36
  15.6823         27
  15.7223         37
  15.7623         32
  15.8023         31
  15.8423         27
  15.8823         36
  15.9223         34
  15.9623         34
  16.0023         26
  16.0423         22
  16.0823         25
  16.1223         27
  16.1623         37
  16.2023         36
  16.2423         29
  16.2823         35
  16.3223         29
  16.3623         26
  16.4023         35
  16.4423         39
  16.4823         37
  16.5223         31
  16.5623         34
  16.6023         27
  16.6423         40
  16.6823         38
  16.7223         22
  16.7623         21
  16.8023         23
  16.8423         24
  16.8823         42
  16.9223         28
  16.9623         31
  17.0023         22
  17.0423         24
  17.0823         25
  17.1223         33
  17.1623         37
  17.2023         27
  17.2423         38
  17.2823         30
  17.3223         25
  17.3623         26
  17.4023         37
  17.4423         33
  17.4823         35
  17.5223         40
  17.5623         30
  17.6023         28
  17.6423         37
  17.6823         34
  17.7223         39
  17.7623         34
  17.8023         30
  17.8423         30
  17.8823         35
  17.9223         27
  17.9623         20
  18.0023         28
  18.0423         29
  18.0823         31
  18.1223         31
  18.1623         35
  18.2023         31
  18.2423         38
  18.2823         22
  18.3223         20
  18.3623         38
  18.4023         37
  18.4423         25
  18.4823         34
  18.5223         35
  18.5623         43
  18.6023         33
  18.6423         41
  18.6823         36
  18.7223         40
  18.7623         27
  18.8023         27
  18.8423         45
  18.8823         25
  18.9223         29
  18.9623         27
  19.0023         32
  19.0423         37
  19.0823         31
  19.1223         29
  19.1623         31
  19.2023         31
  19.2423         31
  19.2823         41
  19.3223         30
  19.3623         19
  19.4023         37
  19.4423         26
  19.4823         40
  19.5223         32
  19.5623         27
  19.6023         26
  19.6423         24
  19.6823         32
  19.7223         23
  19.7623         19
  19.8023         35
  19.8423         30
  19.8823         26
  19.9223         29
  19.9623         29
  20.0023         32
  20.0423         38
  20.0823         37
  20.1223         30
  20.1623         26
  20.2023         17
  20.2423         22
  20.2823         27
  20.3223         34
  20.3623         29
  20.4023         45
  20.4423         47
  20.4823        287
  20.5223        467
  20.5623        287
  20.6023         56
  20.6423         20
  20.6823         26
  20.7223         36
  20.7623         24
  20.8023         44
  20.8423         44
  20.8823         37
  20.9223         34
  20.9623         26
  21.0023         31
  21.0423         36
  21.0823         36
  21.1223         23
  21.1623         36
  21.2023         32
  21.2423         23
  21.2823         25
  21.3223         16
  21.3623         30
  21.4023         29
  21.4423         25
  21.4823         24
  21.5223         17
  21.5623         17
  21.6023         44
  21.6423         24
  21.6823         20
  21.7223         28
  21.7623         16
  21.8023         27
  21.8423         23
  21.8823         19
  21.9223         19
  21.9623         23
  22.0023         19
  22.0423         20
  22.0823         19
  22.1223         22
  22.1623         31
  22.2023         15
  22.2423         18
  22.2823         15
  22.3223         30
  22.3623         21
  22.4023         23
  22.4423         21
  22.4823         17
  22.5223         17
  22.5623         20
  22.6023         17
  22.6423         21
  22.6823         14
  22.7223         20
  22.7623         22
  22.8023         20
  22.8423         26
  22.8823         13
  22.9223         13
  22.9623         21
  23.0023         14
  23.0423         24
  23.0823         15
  23.1223         20
  23.1623         20
  23.2023         30
  23.2423         22
  23.2823         25
  23.3223         22
  23.3623         20
  23.4023         19
  23.4423         21
  23.4823         14
  23.5223         15
  23.5623         28
  23.6023         23
  23.6423         31
  23.6823         21
  23.7223         23
  23.7623         20
  23.8023         21
  23.8423         28
  23.8823         17
  23.9223         16
  23.9623         19
  24.0023         20
  24.0423         20
  24.0823         18
  24.1223         18
  24.1623         13
  24.2023         23
  24.2423         17
  24.2823         25
  24.3223         22
  24.3623         19
  24.4023         13
  24.4423         11
  24.4823         22
  24.5223         19
  24.5623         13
  24.6023         15
  24.6423         15
  24.6823         19
  24.7223         22
  24.7623         27
  24.8023         16
  24.8423         19
  24.8823         14
  24.9223         16
  24.9623         22
  25.0023         15
  25.0423         18
  25.0823         15
  25.1223         14
  25.1623         18
  25.2023         14
  25.2423         15
  25.2823         15
  25.3223         15
  25.3623         26
  25.4023         19
  25.4423         11
  25.4823         19
  25.5223         19
  25.5623         17
  25.6023         17
  25.6423         26
  25.6823         20
  25.7223         18
  25.7623         20
  25.8023         24
  25.8423         27
  25.8823         18
  25.9223         19
  25.9623         24
  26.0023         18
  26.0423         11
  26.0823         18
  26.1223         13
  26.1623         13
  26.2023         14
  26.2423         16
  26.2823         13
  26.3223         18
  26.3623         18
  26.4023         14
  26.4423         18
  26.4823         13
  26.5223         16
  26.5623         17
  26.6023         15
  26.6423         15
  26.6823         12
  26.7223         20
  26.7623         21
  26.8023         14
  26.8423         21
  26.8823         20
  26.9223         12
  26.9623         15
  27.0023         15
  27.0423         18
  27.0823         15
  27.1223         22
  27.1623         18
  27.2023         11
  27.2423         14
  27.2823         17
  27.3223         14
  27.3623         17
  27.4023         20
  27.4423         12
  27.4823         15
  27.5223         13
  27.5623         18
  27.6023         15
  27.6423         11
  27.6823         10
  27.7223         16
  27.7623         15
  27.8023         14
  27.8423         19
  27.8823         22
  27.9223         13
  27.9623         19
  28.0023         14
  28.0423         17
  28.0823         15
  28.1223         17
  28.1623         15
  28.2023         21
  28.2423         20
  28.2823         20
  28.3223         15
  28.3623         31
  28.4023         16
  28.4423         26
  28.4823         15
  28.5223         15
  28.5623         19
  28.6023         19
  28.6423         17
  28.6823         19
  28.7223         21
  28.7623         22
  28.8023         19
  28.8423         25
  28.8823         19
  28.9223         23
  28.9623         12
  29.0023         18
  29.0423         30
  29.0823         16
  29.1223         21
  29.1623         16
  29.2023         21
  29.2423         33
  29.2823         23
  29.3223         14
  29.3623         24
  29.4023         15
  29.4423         21
  29.4823         25
  29.5223         18
  29.5623         23
  29.6023         27
  29.6423         37
  29.6823         30
  29.7223         26
  29.7623         22
  29.8023         19
  29.8423         16
  29.8823         23
  29.9223         23
  29.9623         18
  30.0023         20
  30.0423         27
  30.0823         19
  30.1223         16
  30.1623         23
  30.2023         22
  30.2423         20
  30.2823         23
  30.3223         27
  30.3623         20
  30.4023         25
  30.4423         17
  30.4823         29
  30.5223         23
  30.5623         20
  30.6023         19
  30.6423         20
  30.6823         17
  30.7223         14
  30.7623         11
  30.8023         21
  30.8423         15
  30.8823         18
  30.9223         18
  30.9623         21
  31.0023         18
  31.0423         15
  31.0823         16
  31.1223         19
  31.1623         17
  31.2023         22
  31.2423         19
  31.2823         16
  31.3223         19
  31.3623         20
  31.4023         15
  31.4423         17
  31.4823         19
  31.5223         19
  31.5623         15
  31.6023         28
  31.6423         15
  31.6823         13
  31.7223         11
  31.7623         16
  31.8023         17
  31.8423         19
  31.8823         14
  31.9223         16
  31.9623         24
  32.0023         10
  32.0423         15
  32.0823         18
  32.1223         10
  32.1623         18
  32.2023         17
  32.2423         20
  32.2823         20
  32.3223         17
  32.3623         25
  32.4023         14
  32.4423         13
  32.4823         17
  32.5223         25
  32.5623          9
  32.6023         16
  32.6423         21
  32.6823         26
  32.7223         35
  32.7623         14
  32.8023         18
  32.8423         17
  32.8823         16
  32.9223         14
  32.9623         17
  33.0023         14
  33.0423         13
  33.0823         26
  33.1223         13
  33.1623         17
  33.2023         16
  33.2423         14
  33.2823         18
  33.3223         20
  33.3623         23
  33.4023         14
  33.4423         15
  33.4823         17
  33.5223         15
  33.5623         15
  33.6023         18
  33.6423         13
  33.6823         20
  33.7223         19
  33.7623         17
  33.8023         14
  33.8423         12
  33.8823         12
  33.9223         19
  33.9623         13
  34.0023         20
  34.0423         10
  34.0823         11
  34.1223         13
  34.1623         16
  34.2023         14
  34.2423         19
  34.2823         22
  34.3223         22
  34.3623         15
  34.4023         22
  34.4423         43
  34.4823         22
  34.5223         17
  34.5623         15
  34.6023         15
  34.6423         18
  34.6823         20
  34.7223         15
  34.7623         18
  34.8023         18
  34.8423         20
  34.8823         19
  34.9223         18
  34.9623         15
  35.0023         19
  35.0423         22
  35.0823         20
  35.1223         12
  35.1623         14
  35.2023         22
  35.2423         15
  35.2823         13
  35.3223         14
  35.3623         23
  35.4023         16
  35.4423         14
  35.4823         15
  35.5223         19
  35.5623         22
  35.6023         16
  35.6423         17
  35.6823         22
  35.7223         18
  35.7623         15
  35.8023          9
  35.8423         17
  35.8823         15
  35.9223         13
  35.9623         14
  36.0023         18
  36.0423         18
  36.0823         25
  36.1223         14
  36.1623         15
  36.2023         15
  36.2423         16
  36.2823         14
  36.3223         21
  36.3623         22
  36.4023          9
  36.4423         13
  36.4823          8
  36.5223         15
  36.5623         15
  36.6023         15
  36.6423         11
  36.6823         12
  36.7223         13
  36.7623         10
  36.8023         15
  36.8423         19
  36.8823         13
  36.9223         24
  36.9623         15
  37.0023         14
  37.0423         17
  37.0823         18
  37.1223         16
  37.1623         25
  37.2023         51
  37.2423         15
  37.2823         18
  37.3223         28
  37.3623         35
  37.4023         43
  37.4423        117
  37.4823        708
  37.5223       1774
  37.5623        498
  37.6023        135
  37.6423         73
  37.6823         61
  37.7223         57
  37.7623         58
  37.8023         46
  37.8423         36
  37.8823         42
  37.9223         46
  37.9623         38
  38.0023         44
  38.0423         43
  38.0823         47
  38.1223         43
  38.1623         48
  38.2023         44
  38.2423         44
  38.2823         40
  38.3223         32
  38.3623         45
  38.4023         43
  38.4423         46
  38.4823         29
  38.5223         32
  38.5623         35
  38.6023         29
  38.6423         44
  38.6823         34
  38.7223         43
  38.7623         40
  38.8023         39
  38.8423         46
  38.8823         43
  38.9223         44
  38.9623         38
  39.0023         43
  39.0423         48
  39.0823         46
  39.1223         37
  39.1623         63
  39.2023         55
  39.2423         47
  39.2823         61
  39.3223         61
  39.3623         59
  39.4023         60
  39.4423         78
  39.4823         77
  39.5223         74
  39.5623         90
  39.6023         63
  39.6423         84
  39.6823        106
  39.7223        128
  39.7623        151
  39.8023        320
  39.8423        914
  39.8823       2296
  39.9223        798
  39.9623        327
  40.0023        196
  40.0423        173
  40.0823        172
  40.1223        178
  40.1623        347
  40.2023        572
  40.2423        282
  40.2823        191
  40.3223        239
  40.3623        194
  40.4023        208
  40.4423        240
  40.4823        262
  40.5223        301
  40.5623        325
  40.6023        342
  40.6423        402
  40.6823        439
  40.7223        478
  40.7623        558
  40.8023        629
  40.8423        663
  40.8823        703
  40.9223        834
  40.9623        890
  41.0023       1024
  41.0423       1060
  41.0823       1152
  41.1223       1242
  41.1623       1499
  41.2023       1593
  41.2423       1817
  41.2823       2053
  41.3223       2320
  41.3623       2882
  41.4023       3564
  41.4423       5377
  41.4823      10891
  41.5223      15065
  41.5623      15384
  41.6023      28913
  41.6423     142918
  41.6823    1091200
  41.7223     443813
  41.7623     232016
  41.8023     708395
  41.8423     108524
  41.8823      24142
  41.9223      13007
  41.9623       8863
  42.0023       6450
  42.0423       5045
  42.0823       4210
  42.1223       3561
  42.1623       3033
  42.2023       2766
  42.2423       2396
  42.2823       2118
  42.3223       1928
  42.3623       1704
  42.4023       1448
  42.4423       1232
  42.4823       1145
  42.5223       1010
  42.5623        914
  42.6023        828
  42.6423        703
  42.6823        689
  42.7223        565
  42.7623        539
  42.8023        481
  42.8423        425
  42.8823        369
  42.9223        327
  42.9623        274
  43.0023        233
  43.0423        231
  43.0823        213
  43.1223        236
  43.1623        220
  43.2023        168
  43.2423        154
  43.2823        173
  43.3223        139
  43.3623        130
  43.4023        149
  43.4423        121
  43.4823        125
  43.5223        111
  43.5623         88
  43.6023         92
  43.6423        112
  43.6823        105
  43.7223         95
  43.7623         78
  43.8023         75
  43.8423         76
  43.8823         60
  43.9223         70
  43.9623         70
  44.0023         67
  44.0423         61
  44.0823         76
  44.1223         73
  44.1623         71
  44.2023         65
  44.2423         64
  44.2823         52
  44.3223         49
  44.3623         55
  44.4023         51
  44.4423         49
  44.4823         51
  44.5223         46
  44.5623         38
  44.6023         48
  44.6423         35
  44.6823         49
  44.7223         40
  44.7623         43
  44.8023         43
  44.8423         44
  44.8823         50
  44.9223         31
  44.9623         31
  45.0023         32
  45.0423         40
  45.0823         32
  45.1223         44
  45.1623         29
  45.2023         28
  45.2423         34
  45.2823         38
  45.3223         35
  45.3623         29
  45.4023         36
  45.4423         24
  45.4823         33
  45.5223         38
  45.5623         44
  45.6023         38
  45.6423         34
  45.6823         34
  45.7223         28
  45.7623         28
  45.8023         27
  45.8423         26
  45.8823         32
  45.9223         26
  45.9623         27
  46.0023         31
  46.0423         27
  46.0823         25
  46.1223         38
  46.1623         20
  46.2023         22
  46.2423         18
  46.2823         22
  46.3223         19
  46.3623         25
  46.4023         23
  46.4423         26
  46.4823         23
  46.5223         21
  46.5623         14
  46.6023         20
  46.6423         17
  46.6823         20
  46.7223         13
  46.7623         14
  46.8023         20
  46.8423         22
  46.8823         17
  46.9223         21
  46.9623         30
  47.0023         19
  47.0423         10
  47.0823         21
  47.1223         19
  47.1623         22
  47.2023         26
  47.2423         16
  47.2823         16
  47.3223         19
  47.3623         19
  47.4023         18
  47.4423         13
  47.4823          9
  47.5223         20
  47.5623         13
  47.6023         25
  47.6423         15
  47.6823         16
  47.7223         23
  47.7623         15
  47.8023         17
  47.8423         18
  47.8823         18
  47.9223         25
  47.9623         21
  48.0023         23
  48.0423         10
  48.0823         12
  48.1223         17
  48.1623         14
  48.2023         15
  48.2423         11
  48.2823         18
  48.3223         12
  48.3623         12
  48.4023         15
  48.4423         16
  48.4823         15
  48.5223         10
  48.5623         17
  48.6023         15
  48.6423         18
  48.6823          9
  48.7223         14
  48.7623         14
  48.8023         17
  48.8423         12
  48.8823         14
  48.9223         20
  48.9623         15
  49.0023         18
  49.0423         13
  49.0823         17
  49.1223         12
  49.1623         17
  49.2023         10
  49.2423         17
  49.2823         14
  49.3223         14
  49.3623         10
  49.4023         17
  49.4423          8
  49.4823         11
  49.5223         14
  49.5623         11
  49.6023         15
  49.6423         10
  49.6823         15
  49.7223         11
  49.7623         13
  49.8023          9
  49.8423         14
  49.8823         10
  49.9223         13
  49.9623         15
  50.0023         13
  50.0423         14
  50.0823         14
  50.1223          9
  50.1623         16
  50.2023          9
  50.2423         18
  50.2823         17
  50.3223          8
  50.3623         12
  50.4023         10
  50.4423         12
  50.4823         11
  50.5223         15
  50.5623         12
  50.6023          9
  50.6423         11
  50.6823          9
  50.7223         17
  50.7623         12
  50.8023         16
  50.8423          9
  50.8823          6
  50.9223          8
  50.9623          9
  51.0023         11
  51.0423          9
  51.0823         13
  51.1223          7
  51.1623         17
  51.2023         14
  51.2423         12
  51.2823         10
  51.3223         13
  51.3623          9
  51.4023         10
  51.4423         16
  51.4823         10
  51.5223         10
  51.5623         13
  51.6023          8
  51.6423         11
  51.6823         10
  51.7223          9
  51.7623          8
  51.8023          8
  51.8423         12
  51.8823         12
  51.9223         10
  51.9623          7
  52.0023         11
  52.0423          7
  52.0823         12
  52.1223         11
  52.1623          7
  52.2023         13
  52.2423         10
  52.2823         11
  52.3223         15
  52.3623          9
  52.4023         16
  52.4423          7
  52.4823         11
  52.5223          9
  52.5623         17
  52.6023         12
  52.6423         14
  52.6823          3
  52.7223         10
  52.7623         12
  52.8023         10
  52.8423          8
  52.8823         18
  52.9223          9
  52.9623         15
  53.0023          8
  53.0423          8
  53.0823          6
  53.1223          8
  53.1623          7
  53.2023          9
  53.2423          4
  53.2823         12
  53.3223          8
  53.3623         16
  53.4023         12
  53.4423         19
  53.4823         11
  53.5223          8
  53.5623          6
  53.6023          6
  53.6423         10
  53.6823          4
  53.7223         13
  53.7623         16
  53.8023         12
  53.8423          8
  53.8823          8
  53.9223          7
  53.9623          9
  54.0023         13
  54.0423          8
  54.0823          6
  54.1223          6
  54.1623         13
  54.2023          5
  54.2423          6
  54.2823         15
  54.3223         12
  54.3623          8
  54.4023          9
  54.4423          8
  54.4823          7
  54.5223          6
  54.5623         11
  54.6023         10
  54.6423         10
  54.6823          7
  54.7223         14
  54.7623          8
  54.8023         13
  54.8423          5
  54.8823          5
  54.9223         10
  54.9623         10
  55.0023         16
  55.0423         13
  55.0823         11
  55.1223         12
  55.1623         12
  55.2023          9
  55.2423         10
  55.2823         14
  55.3223          8
  55.3623         10
  55.4023         13
  55.4423          6
  55.4823          8
  55.5223         13
  55.5623         11
  55.6023         11
  55.6423         16
  55.6823         10
  55.7223         14
  55.7623         11
  55.8023          5
  55.8423         11
  55.8823         20
  55.9223          9
  55.9623         14
  56.0023         11
  56.0423         10
  56.0823          8
  56.1223         16
  56.1623         15
  56.2023         15
  56.2423         10
  56.2823         10
  56.3223          7
  56.3623         12
  56.4023         11
  56.4423         10
  56.4823         12
  56.5223          9
  56.5623         10
  56.6023         13
  56.6423         17
  56.6823         10
  56.7223         14
  56.7623          8
  56.8023          9
  56.8423          8
  56.8823         12
  56.9223          8
  56.9623          6
  57.0023          7
  57.0423          5
  57.0823         13
  57.1223          9
  57.1623         13
  57.2023          8
  57.2423         19
  57.2823          8
  57.3223          6
  57.3623         12
  57.4023         16
  57.4423         17
  57.4823         13
  57.5223         11
  57.5623         16
  57.6023         17
  57.6423          8
  57.6823          9
  57.7223         10
  57.7623          9
  57.8023          9
  57.8423         10
  57.8823         14
  57.9223         14
  57.9623         10
  58.0023         10
  58.0423         11
  58.0823         14
  58.1223          7
  58.1623         12
  58.2023         14
  58.2423          9
  58.2823         11
  58.3223          9
  58.3623         11
  58.4023         12
  58.4423         15
  58.4823         20
  58.5223         10
  58.5623         11
  58.6023          8
  58.6423         11
  58.6823         14
  58.7223         13
  58.7623         20
  58.8023         14
  58.8423         10
  58.8823         13
  58.9223         10
  58.9623         15
  59.0023         11
  59.0423         15
  59.0823          8
  59.1223         11
  59.1623          9
  59.2023         13
  59.2423         12
  59.2823         12
  59.3223          8
  59.3623         10
  59.4023         19
  59.4423         10
  59.4823          5
  59.5223          3
  59.5623         10
  59.6023         14
  59.6423         11
  59.6823          8
  59.7223         14
  59.7623          8
  59.8023         12
  59.8423         13
  59.8823         15
  59.9223         16
  59.9623          8
  60.0023         15
  60.0423          9
  60.0823         10
  60.1223          6
  60.1623         10
  60.2023          9
  60.2423         13
  60.2823         14
  60.3223          9
  60.3623         15
  60.4023         11
  60.4423         10
  60.4823          8
  60.5223         17
  60.5623         16
  60.6023         18
  60.6423         12
  60.6823          9
  60.7223         15
  60.7623          9
  60.8023          7
  60.8423         13
  60.8823         11
  60.9223          6
  60.9623          8
  61.0023          8
  61.0423         13
  61.0823         11
  61.1223         10
  61.1623          8
  61.2023         17
  61.2423          8
  61.2823         10
  61.3223         17
  61.3623         11
  61.4023         10
  61.4423          8
  61.4823          9
  61.5223         12
  61.5623          6
  61.6023          4
  61.6423         12
  61.6823         12
  61.7223          9
  61.7623         16
  61.8023          9
  61.8423         10
  61.8823          8
  61.9223         14
  61.9623         10
  62.0023         10
  62.0423          9
  62.0823         11
  62.1223          9
  62.1623          7
  62.2023         14
  62.2423         11
  62.2823          7
  62.3223         15
  62.3623          8
  62.4023          7
  62.4423          4
  62.4823          9
  62.5223         11
  62.5623         10
  62.6023          5
  62.6423         11
  62.6823         10
  62.7223          5
  62.7623         17
  62.8023         10
  62.8423         11
  62.8823         12
  62.9223         11
  62.9623          6
  63.0023         11
  63.0423         10
  63.0823         17
  63.1223          7
  63.1623          9
  63.2023         10
  63.2423          4
  63.2823          8
  63.3223         11
  63.3623          9
  63.4023         15
  63.4423         16
  63.4823          9
  63.5223         10
  63.5623          5
  63.6023         11
  63.6423          5
  63.6823         11
  63.7223          9
  63.7623         11
  63.8023          7
  63.8423         26
  63.8823         15
  63.9223         12
  63.9623         14
  64.0023         14
  64.0423         11
  64.0823         14
  64.1223          9
  64.1623         16
  64.2023         11
  64.2423         20
  64.2823         13
  64.3223          7
  64.3623         15
  64.4023         20
  64.4423         54
  64.4823        320
  64.5223        505
  64.5623        111
  64.6023         45
  64.6423         50
  64.6823        132
  64.7223         75
  64.7623         28
  64.8023         17
  64.8423         10
  64.8823         17
  64.9223         13
  64.9623          8
  65.0023          6
  65.0423         11
  65.0823          7
  65.1223         12
  65.1623          9
  65.2023          8
  65.2423          9
  65.2823          8
  65.3223          5
  65.3623          3
  65.4023         17
  65.4423          8
  65.4823          5
  65.5223         13
  65.5623         19
  65.6023          9
  65.6423         12
  65.6823         11
  65.7223         11
  65.7623         12
  65.8023         12
  65.8423         18
  65.8823          8
  65.9223         11
  65.9623          9
  66.0023          9
  66.0423          9
  66.0823         12
  66.1223         11
  66.1623          4
  66.2023         11
  66.2423          8
  66.2823         16
  66.3223          9
  66.3623         10
  66.4023         14
  66.4423         11
  66.4823          7
  66.5223          6
  66.5623          7
  66.6023         12
  66.6423          7
  66.6823         14
  66.7223         12
  66.7623         12
  66.8023         10
  66.8423         14
  66.8823         17
  66.9223         11
  66.9623          9
  67.0023          7
  67.0423          6
  67.0823          5
  67.1223          9
  67.1623         10
  67.2023         11
  67.2423         13
  67.2823          9
  67.3223          8
  67.3623          6
  67.4023          9
  67.4423         14
  67.4823         10
  67.5223          7
  67.5623         10
  67.6023         12
  67.6423         14
  67.6823          9